{
  "resourceType": "Bundle",
  "type": "transaction",
  "entry": [
    {
      "resource": {
        "resourceType": "Patient",
        "id": "patient-id-123",
        "identifier": [{ "system": "http://hospital.smarthealth.org", "value": "123456" }],
        "name": [{ "use": "official", "family": "Doe", "given": ["Jane"] }],
        "gender": "female",
        "birthDate": "1985-05-15",
        "address": [{ "line": ["123 Main St"], "city": "Metropolis", "state": "NY", "postalCode": "10001" }],
        "telecom": [{ "system": "phone", "value": "555-555-5555", "use": "home" }]
      },
      "request": {
        "method": "POST",
        "url": "Patient"
      }
    },
    {
      "resource": {
        "resourceType": "Encounter",
        "id": "encounter-id-789",
        "subject": { "reference": "Patient/patient-id-123" },
        "period": { "start": "2024-09-22T14:30:00Z" },
        "type": [{ "coding": [{ "system": "http://terminology.hl7.org/CodeSystem/v3-ActCode", "code": "AMB", "display": "ambulatory" }] }],
        "serviceProvider": { "reference": "Organization/organization-id-1" },
        "location": [{ "location": { "reference": "Location/location-id-1" }, "status": "completed" }]
      },
      "request": {
        "method": "POST",
        "url": "Encounter"
      }
    },
    {
      "resource": {
        "resourceType": "CarePlan",
        "id": "careplan-id-456",
        "subject": { "reference": "Patient/patient-id-123" },
        "period": { "start": "2024-09-01", "end": "2024-12-31" },
        "goal": [{ "reference": "Goal/goal-id-1" }],
        "activity": [{ "detail": { "status": "in-progress", "code": { "coding": [{ "system": "http://snomed.info/sct", "code": "1234", "display": "Postnatal check-up" }] } } }]
      },
      "request": {
        "method": "POST",
        "url": "CarePlan"
      }
    },
    {
      "resource": {
        "resourceType": "Condition",
        "id": "condition-id-111",
        "subject": { "reference": "Patient/patient-id-123" },
        "code": { "coding": [{ "system": "http://snomed.info/sct", "code": "12345", "display": "Postnatal depression" }] },
        "onsetDateTime": "2024-09-15",
        "severity": { "coding": [{ "system": "http://terminology.hl7.org/CodeSystem/condition-severity", "code": "severe" }] },
        "clinicalStatus": { "coding": [{ "system": "http://terminology.hl7.org/CodeSystem/condition-clinical", "code": "active" }] }
      },
      "request": {
        "method": "POST",
        "url": "Condition"
      }
    },
    {
      "resource": {
        "resourceType": "Observation",
        "id": "observation-id-321",
        "subject": { "reference": "Patient/patient-id-123" },
        "code": { "coding": [{ "system": "http://loinc.org", "code": "59408-5", "display": "Blood pressure systolic & diastolic" }] },
        "valueQuantity": { "value": 120, "unit": "mmHg", "system": "http://unitsofmeasure.org", "code": "mm[Hg]" },
        "status": "final",
        "effectiveDateTime": "2024-09-22T14:30:00Z"
      },
      "request": {
        "method": "POST",
        "url": "Observation"
      }
    },
    {
      "resource": {
        "resourceType": "CareTeam",
        "id": "careteam-id-987",
        "subject": { "reference": "Patient/patient-id-123" },
        "period": { "start": "2024-09-01", "end": "2024-12-31" },
        "participant": [
          {
            "role": { "coding": [{ "system": "http://snomed.info/sct", "code": "123456", "display": "Obstetrician" }] },
            "member": { "reference": "Practitioner/practitioner-id-1" }
          },
          {
            "role": { "coding": [{ "system": "http://snomed.info/sct", "code": "123457", "display": "Nurse" }] },
            "member": { "reference": "Practitioner/practitioner-id-2" }
          }
        ]
      },
      "request": {
        "method": "POST",
        "url": "CareTeam"
      }
    },
    {
      "resource": {
        "resourceType": "Practitioner",
        "id": "practitioner-id-1",
        "name": [{ "use": "official", "family": "Smith", "given": ["John"] }],
        "telecom": [{ "system": "phone", "value": "555-555-1234", "use": "work" }],
        "address": [{ "line": ["456 Care St"], "city": "Metropolis", "state": "NY", "postalCode": "10002" }],
        "qualification": [{ "code": { "coding": [{ "system": "http://terminology.hl7.org/CodeSystem/v2-0360", "code": "MD", "display": "Doctor of Medicine" }] } }]
      },
      "request": {
        "method": "POST",
        "url": "Practitioner"
      }
    },
    {
      "resource": {
        "resourceType": "Procedure",
        "id": "procedure-id-654",
        "subject": { "reference": "Patient/patient-id-123" },
        "performedPeriod": { "start": "2024-09-21T10:00:00Z", "end": "2024-09-21T11:30:00Z" },
        "code": { "coding": [{ "system": "http://snomed.info/sct", "code": "98765", "display": "Postnatal educational session" }] },
        "performer": [{ "actor": { "reference": "Practitioner/practitioner-id-1" }, "role": { "coding": [{ "system": "http://snomed.info/sct", "code": "123456", "display": "Instructor" }] } }]
      },
      "request": {
        "method": "POST",
        "url": "Procedure"
      }
    }
  ]
}
